<Bundle xmlns="http://hl7.org/fhir">
    <id value="BundleMedicationCard"/>
    <meta>
        <lastUpdated value="2019-10-11T13:20:20.490+00:00"/>
        <profile value="http://fhir.ch/ig/ch-emed/StructureDefinition/ch-emed-document-medicationcard"/>
    </meta>
    <identifier>
        <system value="http://example.fhir"/>
        <value value="1234"/>
    </identifier>
    <type value="document"/>
    <entry>
        <fullUrl value="http://test.fhir.ch/r4/Composition/CompMedicationCard"/>
        <resource>
            <Composition xmlns="http://hl7.org/fhir">
                <id value="CompMedicationCard"/>
                <meta>
                    <versionId value="1"/>
                    <lastUpdated value="2019-10-11T13:15:00.469+00:00"/>
                    <profile value="http://fhir.ch/ig/ch-emed/StructureDefinition/ch-emed-composition-medicationcard"/>
                </meta>
                <status value="final"/>
                <type>
                    <coding>
                        <system value="http://loinc.org"/>
                        <code value="10160-0"/>
                        <display value="Hx of Medication use"/>
                    </coding>
                </type>
                <subject>
                    <reference value="Patient/MonikaWegmueller"/>
                </subject>
                <date value="2019-09-03T11:46:09+02:00"/>
                <author>
                    <reference value="Practitioner/FamilienHausarzt"/>
                </author>
                <title value="Medication card"/>
                <section>
                    <title value="Medikationsplan"/>
                    <code>
                        <coding>
                            <system value="http://loinc.org"/>
                            <code value="10160-0"/>
                            <display value="Hx of Medication use"/>
                        </coding>
                    </code>
                    <entry>
                        <reference value="MedicationStatement/MedStatNorvasc"/>
                    </entry>
                </section>
                <section>
                    <title value="Bemerkungen"/>
                    <code>
                        <coding>
                            <system value="http://loinc.org"/>
                            <code value="48767-8"/>
                            <display value="Annotation comment Imp"/>
                        </coding>
                    </code>
                    <text>
                        <status value="additional"/>
                        <div xmlns="http://www.w3.org/1999/xhtml"> Allgemeine Bemerkungen </div>
                    </text>
                </section>
            </Composition>
        </resource>
    </entry>
    <entry>
        <fullUrl value="http://test.fhir.ch/r4/Patient/MonikaWegmueller"/>
        <resource>
            <Patient xmlns="http://hl7.org/fhir">
                <id value="MonikaWegmueller"/>
                <meta>
                    <versionId value="1"/>
                    <lastUpdated value="2019-10-11T13:13:22.949+00:00"/>
                    <profile value="http://fhir.ch/ig/ch-core/StructureDefinition/ch-core-patient"/>
                </meta>
                <identifier>
                    <system value="urn:oid:2.16.756.5.30.1.127.3.10.3"/>
                    <value value="7560521127080"/>
                </identifier>
                <identifier>
                    <system value="urn:oid:2.16.756.5.32"/>
                    <value value="756.0521.1270.80"/>
                </identifier>
                <name>
                    <family value="Wegm체ller"/>
                    <given value="Monika"/>
                </name>
                <telecom>
                    <system value="phone"/>
                    <value value="079 020 01 29"/>
                    <use value="mobile"/>
                </telecom>
                <gender value="female"/>
                <birthDate value="1943-05-15"/>
                <address>
                    <line value="Wiesenstr. 12"/>
                    <city value="Z체rich"/>
                    <postalCode value="8003"/>
                    <country value="CH"/>
                </address>
            </Patient>
        </resource>
    </entry>
    <entry>
        <fullUrl value="http://test.fhir.ch/r4/Practitioner/FamilienHausarzt"/>
        <resource>
            <Practitioner xmlns="http://hl7.org/fhir">
                <id value="FamilienHausarzt"/>
                <meta>
                    <versionId value="1"/>
                    <lastUpdated value="2019-10-11T13:13:36.753+00:00"/>
                    <profile value="http://fhir.ch/ig/ch-core/StructureDefinition/ch-core-practitioner"/>
                </meta>
                <identifier>
                    <system value="urn:oid:2.51.1.3"/>
                    <value value="3401000759876"/>
                </identifier>
                <name>
                    <family value="Hausarzt"/>
                    <given value="Familien"/>
                </name>
                <telecom>
                    <system value="phone"/>
                    <value value="044 044 44 00"/>
                    <use value="work"/>
                </telecom>
                <address>
                    <line value="Krankenstrasse 2"/>
                    <city value="Z체rich"/>
                    <postalCode value="8005"/>
                </address>
                <qualification>
                    <code>
                        <coding>
                            <system value="http://terminology.hl7.org/CodeSystem/v2-0360|2.7"/>
                            <code value="MD"/>
                            <display value="Doctor of Medicine"/>
                        </coding>
                    </code>
                </qualification>
            </Practitioner>
        </resource>
    </entry>
    <entry>
        <fullUrl value="http://test.fhir.ch/r4/MedicationStatement/MedStatNorvasc"/>
        <resource>
            <MedicationStatement xmlns="http://hl7.org/fhir">
                <id value="MedStatNorvasc"/>
                <meta>
                    <versionId value="1"/>
                    <lastUpdated value="2019-10-11T13:14:40.211+00:00"/>
                    <profile value="http://fhir.ch/ig/ch-emed/StructureDefinition/ch-emed-medicationstatement"/>
                </meta>
                <status value="active"/>
                <medicationReference>
                    <reference value="Medication/Norvasc"/>
                </medicationReference>
                <subject>
                    <reference value="Patient/MonikaWegmueller"/>
                </subject>
                <reasonCode>
                    <text value="Bluthochdruck"/>
                </reasonCode>
                <note>
                    <text value="zum Essen einnehmen"/>
                </note>
                <dosage>
                    <text value="2x t채glich eine Tablette morgens und abends einnehmen"/>
                    <timing>
                        <repeat>
                            <boundsPeriod>
                                <start value="2019-06-12"/>
                                <end value="2019-09-12"/>
                            </boundsPeriod>
                            <when value="CM"/>
                            <when value="CV"/>
                        </repeat>
                    </timing>
                    <asNeededBoolean value="false"/>
                    <route>
                        <coding>
                            <system value="urn:oid:0.4.0.127.0.16.1.1.2.1"/>
                            <code value="20053000"/>
                            <display value="Oral use"/>
                        </coding>
                    </route>
                    <doseAndRate>
                        <doseQuantity>
                            <value value="1"/>
                            <unit value="Tablette"/>
                        </doseQuantity>
                    </doseAndRate>
                </dosage>
            </MedicationStatement>
        </resource>
    </entry>
    <entry>
        <fullUrl value="http://test.fhir.ch/r4/Medication/Norvasc"/>
        <resource>
            <Medication xmlns="http://hl7.org/fhir">
                <id value="Norvasc"/>
                <meta>
                    <versionId value="1"/>
                    <lastUpdated value="2019-10-11T13:13:59.819+00:00"/>
                    <profile value="http://fhir.ch/ig/ch-emed/StructureDefinition/ch-emed-medication"/>
                </meta>
                <code>
                    <coding>
                        <system value="urn:oid:2.51.1.1"/>
                        <code value="7680500440334"/>
                        <display value="NORVASC Tabl 10 mg"/>
                    </coding>
                    <text value="NORVASC"/>
                </code>
                <form>
                    <coding>
                        <system value="urn:oid:0.4.0.127.0.16.1.1.2.1"/>
                        <code value="10219000"/>
                        <display value="Tablet"/>
                    </coding>
                </form>
                <amount>
                    <numerator>
                        <value value="30"/>
                        <unit value="tbl"/>
                        <system value="http://unitsofmeasure.org"/>
                        <code value="tbl"/>
                    </numerator>
                    <denominator>
                        <value value="1"/>
                        <system value="http://terminology.hl7.org/CodeSystem/medicationknowledge-package-type"/>
                        <code value="pkt"/>
                    </denominator>
                </amount>
                <ingredient>
                    <itemCodeableConcept>
                        <coding>
                            <system value="urn:oid:2.16.840.1.113883.6.73"/>
                            <code value="C08CA01"/>
                            <display value="amlodipine"/>
                        </coding>
                        <text value="Amlodipine"/>
                    </itemCodeableConcept>
                    <strength>
                        <numerator>
                            <value value="10"/>
                            <unit value="mg"/>
                            <system value="http://unitsofmeasure.org"/>
                            <code value="mg"/>
                        </numerator>
                        <denominator>
                            <value value="1"/>
                            <unit value="tbl"/>
                            <system value="http://unitsofmeasure.org"/>
                            <code value="{tbl}"/>
                        </denominator>
                    </strength>
                </ingredient>
                <batch>
                    <lotNumber value="80-225960"/>
                </batch>
            </Medication>
        </resource>
    </entry>
</Bundle>